Data File Name,mSp_scATAC_High Sensitivity DNA Assay_DEDAE00427_2018-04-22_14-42-26.xad
Data File Path,C:\Users\AgilentP302\Documents\Xi\2018-04-22
Date Created,22 April 2018 13:42:26
Date Last Modified,22 April 2018 14:22:51
Version Created,B.02.09.SI725
Version Last Modified,B.02.09.SI725
 
Assay Name,High Sensitivity DNA
Assay Path,C:\Program Files (x86)\Agilent\2100 bioanalyzer\2100 expert\assays\dsDNA
Assay Title,High Sensitivity DNA Assay
Assay Version,1.03
 
Number of Samples Run,11
 
Sample Name,rep5
Number of Events,2121
 
Time,Value
32,0.176178
32.05,0.176178
32.1,0.176178
32.15,0.176178
32.2,0.176178
32.25,0.176178
32.3,0.176178
32.35,0.176178
32.4,0.176178
32.45,0.176178
32.5,0.176178
32.55,0.176178
32.6,0.176178
32.65,0.176178
32.7,0.176178
32.75,0.176178
32.8,0.176178
32.85,0.176178
32.9,0.176178
32.95,0.176178
33,0.176178
33.05,0.176178
33.1,0.176178
33.15,6.225339E-02
33.2,-0.122859
33.25,-0.2319042
33.3,-0.1967479
33.35,-0.194087
33.4,-0.0512111
33.45,5.230678E-02
33.5,0.1147369
33.55,6.309693E-02
33.6,1.489807E-02
33.65,8.055665E-02
33.7,3.105554E-02
33.75,-6.476756E-02
33.8,-5.452003E-02
33.85,-2.325334E-02
33.9,6.868254E-02
33.95,0.16164
34,0.1629192
34.05,0.1073509
34.1,1.938805E-02
34.15,-2.509318E-02
34.2,-1.091157E-02
34.25,-1.712936E-02
34.3,-3.587065E-02
34.35,-7.388753E-02
34.4,-0.1032812
34.45,-4.875723E-02
34.5,3.482208E-03
34.55,-4.381191E-03
34.6,-4.992874E-02
34.65,-8.169208E-02
34.7,-6.073656E-02
34.75,-2.051234E-02
34.8,2.227129E-03
34.85,3.015263E-02
34.9,-2.167693E-02
34.95,-5.357733E-02
35,-0.1160332
35.05,-0.1196177
35.1,-0.129314
35.15,-9.191371E-02
35.2,-6.092671E-02
35.25,-0.0257232
35.3,-2.503174E-02
35.35,1.491988E-03
35.4,-4.105209E-02
35.45,-1.519065E-02
35.5,-4.950387E-02
35.55,-0.107057
35.6,-0.1259144
35.65,-0.1047858
35.7,-9.504001E-02
35.75,-8.893558E-02
35.8,-0.182753
35.85,-0.2154565
35.9,-0.2211949
35.95,-0.2325342
36,-0.2152216
36.05,-0.2383448
36.1,-0.3143571
36.15,-0.30828
36.2,-0.245222
36.25,-0.1462165
36.3,-6.140426E-02
36.35,-7.639928E-02
36.4,-0.1475872
36.45,-0.2354069
36.5,-0.2206979
36.55,-0.1571616
36.6,-0.1232156
36.65,-0.1196849
36.7,-5.468853E-02
36.75,-0.1483463
36.8,-0.2996702
36.85,-0.421317
36.9,-0.4552727
36.95,-0.4990171
37,-0.4675406
37.05,-0.367072
37.1,-0.2477168
37.15,-0.3321121
37.2,-0.4240009
37.25,-0.3745965
37.3,-0.3620384
37.35,-0.3284747
37.4,-0.3109719
37.45,-0.2829801
37.5,-0.3481604
37.55,-0.4409938
37.6,-0.528899
37.65,-0.4714336
37.7,-0.4276733
37.75,-0.3456353
37.8,-0.282637
37.85,-0.2486715
37.9,-0.2560346
37.95,-0.2689593
38,-0.2717984
38.05,-0.2771419
38.1,-0.3053813
38.15,-0.3628814
38.2,-0.428597
38.25,-0.4394916
38.3,-0.389217
38.35,-0.3427796
38.4,-0.3051676
38.45,-0.2840561
38.5,-0.3067124
38.55,-0.3853737
38.6,-0.4526708
38.65,-0.5065165
38.7,-0.5324163
38.75,-0.5623646
38.8,-0.4900558
38.85,-0.5005364
38.9,-0.5177845
38.95,-0.5279867
39,-0.5041381
39.05,-0.4782971
39.1,-0.4866668
39.15,-0.4170424
39.2,-0.4590698
39.25,-0.5538576
39.3,-0.618299
39.35,-0.6403928
39.4,-0.6630353
39.45,-0.677986
39.5,-0.6333287
39.55,-0.5707649
39.6,-0.6103783
39.65,-0.5855223
39.7,-0.5786974
39.75,-0.4872541
39.8,-0.3309776
39.85,-0.2479305
39.9,-0.2425105
39.95,-0.3636419
40,-0.5043265
40.05,-0.6088417
40.1,-0.6998907
40.15,-0.6712295
40.2,-0.5652424
40.25,-0.5278459
40.3,-0.5173235
40.35,-0.4937498
40.4,-0.5030912
40.45,-0.5320187
40.5,-0.5310836
40.55,-0.5030322
40.6,-0.5111499
40.65,-0.6071702
40.7,-0.6796637
40.75,-0.6747653
40.8,-0.6982125
40.85,-0.7080275
40.9,-0.6860125
40.95,-0.7405889
41,-0.6767793
41.05,-0.6084442
41.1,-0.4294831
41.15,-0.3924522
41.2,-0.4055248
41.25,-0.4481959
41.3,-0.4677596
41.35,-0.5479624
41.4,-0.5115271
41.45,-0.5523571
41.5,-0.598971
41.55,-0.5842634
41.6,-0.5329658
41.65,-0.5353624
41.7,-0.570064
41.75,-0.5619703
41.8,-0.5489137
41.85,-0.5499547
41.9,-0.4912337
41.95,-0.3860354
42,-0.3875913
42.05,-0.4486929
42.1,-0.4628939
42.15,-0.4457177
42.2,-0.4433604
42.25,-0.4343749
42.3,-0.3375445
42.35,-0.2667156
42.4,-0.113742
42.45,0.4660264
42.5,1.776099
42.55,4.408428
42.6,9.435787
42.65,17.84446
42.7,30.50871
42.75,47.26932
42.8,67.2213
42.85,88.01064
42.9,105.7145
42.95,116.4993
43,117.9744
43.05,109.325
43.1,92.77406
43.15,71.86961
43.2,50.74321
43.25,32.62616
43.3,19.0639
43.35,10.02008
43.4,4.877687
43.45,2.330735
43.5,1.181777
43.55,0.7729733
43.6,0.6760062
43.65,0.6751453
43.7,0.6353976
43.75,0.545257
43.8,0.5246148
43.85,0.5224691
43.9,0.5256625
43.95,0.5748956
44,0.6369554
44.05,0.6831008
44.1,0.7221281
44.15,0.7616343
44.2,0.7475933
44.25,0.661185
44.3,0.5986135
44.35,0.5738673
44.4,0.5833219
44.45,0.7005482
44.5,0.7954091
44.55,0.8920006
44.6,0.9077624
44.65,0.8283038
44.7,0.7789389
44.75,0.7166399
44.8,0.7132279
44.85,0.7809217
44.9,0.9525871
44.95,0.9965765
45,1.089572
45.05,1.15608
45.1,1.287469
45.15,1.462785
45.2,1.648166
45.25,1.712904
45.3,1.734992
45.35,1.70611
45.4,1.709549
45.45,1.716561
45.5,1.727138
45.55,1.827964
45.6,1.919043
45.65,2.047956
45.7,2.114022
45.75,2.14852
45.8,2.101281
45.85,2.071543
45.9,2.073877
45.95,2.065463
46,2.041005
46.05,1.974558
46.1,1.851687
46.15,1.647007
46.2,1.457662
46.25,1.256107
46.3,1.054078
46.35,0.9229634
46.4,0.895763
46.45,0.8552294
46.5,0.7020686
46.55,0.4751434
46.6,0.294175
46.65,0.1861703
46.7,0.1512293
46.75,0.1002664
46.8,5.982766E-02
46.85,-3.952385E-02
46.9,-5.159535E-02
46.95,-9.350564E-02
47,-0.1546113
47.05,-0.2055758
47.1,-0.2576776
47.15,-0.2620509
47.2,-0.2180908
47.25,-0.1931137
47.3,-0.1480223
47.35,-0.147202
47.4,-0.1808394
47.45,-0.1523225
47.5,-0.1385812
47.55,-0.1648804
47.6,-0.239065
47.65,-0.2947575
47.7,-0.3276443
47.75,-0.3564119
47.8,-0.4314027
47.85,-0.4575669
47.9,-0.4394858
47.95,-0.4768316
48,-0.5201896
48.05,-0.5431138
48.1,-0.556017
48.15,-0.5428644
48.2,-0.4775619
48.25,-0.3771154
48.3,-0.3192387
48.35,-0.4401543
48.4,-0.4904284
48.45,-0.4903772
48.5,-0.5071756
48.55,-0.4798453
48.6,-0.4562305
48.65,-0.4619762
48.7,-0.3222869
48.75,-0.2313672
48.8,-9.089775E-02
48.85,-7.791942E-02
48.9,-1.012253E-02
48.95,0.1075431
49,0.2250978
49.05,0.304441
49.1,0.4092139
49.15,0.4423954
49.2,0.5710267
49.25,0.7760846
49.3,1.110372
49.35,1.418348
49.4,1.660864
49.45,1.794488
49.5,1.903038
49.55,2.055693
49.6,2.265951
49.65,2.569335
49.7,3.070952
49.75,3.797165
49.8,4.721478
49.85,5.723763
49.9,6.860322
49.95,8.175202
50,9.510614
50.05,10.71576
50.1,11.56332
50.15,12.11006
50.2,12.26911
50.25,11.97292
50.3,11.23019
50.35,10.31498
50.4,9.297935
50.45,8.402711
50.5,7.714074
50.55,7.461967
50.6,7.343575
50.65,7.305174
50.7,7.063333
50.75,6.984696
50.8,6.802434
50.85,6.663704
50.9,6.592407
50.95,6.570446
51,6.762185
51.05,7.274175
51.1,7.712277
51.15,8.326497
51.2,9.00268
51.25,9.968707
51.3,10.95235
51.35,12.12331
51.4,13.2353
51.45,14.19663
51.5,14.96811
51.55,15.72707
51.6,16.66112
51.65,17.79404
51.7,19.08154
51.75,20.85761
51.8,23.37624
51.85,26.82712
51.9,31.28358
51.95,36.4449
52,41.98599
52.05,47.45134
52.1,52.62975
52.15,56.89899
52.2,59.61837
52.25,60.83776
52.3,60.64218
52.35,59.43588
52.4,57.71272
52.45,55.93645
52.5,54.58799
52.55,53.23462
52.6,51.5825
52.65,49.66299
52.7,46.68917
52.75,42.5514
52.8,37.46454
52.85,31.84418
52.9,26.06986
52.95,20.8596
53,16.49357
53.05,13.2606
53.1,10.963
53.15,9.399232
53.2,8.325793
53.25,7.548171
53.3,6.996646
53.35,6.515363
53.4,6.120296
53.45,5.889893
53.5,5.63982
53.55,5.349927
53.6,5.133528
53.65,5.000217
53.7,4.811843
53.75,4.496552
53.8,4.179432
53.85,3.854967
53.9,3.398096
53.95,2.920184
54,2.546013
54.05,2.234661
54.1,1.997072
54.15,1.835162
54.2,1.783191
54.25,1.735168
54.3,1.693133
54.35,1.725519
54.4,1.831814
54.45,1.783591
54.5,1.680958
54.55,1.577549
54.6,1.621819
54.65,1.614319
54.7,1.617828
54.75,1.671429
54.8,1.695643
54.85,1.62854
54.9,1.59536
54.95,1.531444
55,1.368606
55.05,1.227855
55.1,1.288339
55.15,1.332843
55.2,1.375279
55.25,1.331742
55.3,1.296108
55.35,1.219637
55.4,1.104991
55.45,1.096392
55.5,1.170776
55.55,1.220652
55.6,1.37388
55.65,1.569558
55.7,1.691945
55.75,1.697597
55.8,1.626991
55.85,1.69796
55.9,1.860959
55.95,2.01719
56,2.179123
56.05,2.308958
56.1,2.324306
56.15,2.360168
56.2,2.407007
56.25,2.593125
56.3,2.788123
56.35,3.031873
56.4,3.235353
56.45,3.518076
56.5,3.540619
56.55,3.616743
56.6,3.751627
56.65,4.111257
56.7,4.385428
56.75,4.626935
56.8,4.809022
56.85,5.041517
56.9,5.214297
56.95,5.626818
57,6.02143
57.05,6.433874
57.1,6.667644
57.15,6.925433
57.2,7.155129
57.25,7.336979
57.3,7.577424
57.35,7.9018
57.4,8.380256
57.45,9.01062
57.5,9.628077
57.55,10.21331
57.6,10.79228
57.65,11.4635
57.7,12.40845
57.75,13.50489
57.8,14.62776
57.85,15.94033
57.9,17.5055
57.95,19.34905
58,21.40791
58.05,23.66134
58.1,26.29802
58.15,29.18612
58.2,32.58739
58.25,36.49127
58.3,40.90042
58.35,45.80624
58.4,51.07816
58.45,57.30239
58.5,63.84857
58.55,71.14891
58.6,80.10223
58.65,88.89252
58.7,98.10183
58.75,107.6059
58.8,117.9814
58.85,128.6733
58.9,139.6735
58.95,152.0249
59,166.1201
59.05,180.8911
59.1,197.2127
59.15,214.766
59.2,233.4419
59.25,252.907
59.3,272.8448
59.35,292.7971
59.4,312.4624
59.45,330.6606
59.5,346.5073
59.55,359.8718
59.6,371.6542
59.65,381.7466
59.7,389.3036
59.75,395.5586
59.8,401.4398
59.85,407.0971
59.9,412.9063
59.95,419.9384
60,428.599
60.05,438.1314
60.1,447.5552
60.15,457.7562
60.2,467.2723
60.25,475.4801
60.3,482.8978
60.35,489.254
60.4,495.1021
60.45,499.2219
60.5,501.326
60.55,501.7422
60.6,500.3923
60.65,498.9777
60.7,497.0492
60.75,494.3409
60.8,492.2944
60.85,490.5757
60.9,488.8731
60.95,489.1194
61,490.5899
61.05,492.5518
61.1,494.251
61.15,495.2166
61.2,495.6942
61.25,495.6788
61.3,495.3799
61.35,495.0157
61.4,494.4377
61.45,493.0045
61.5,490.4433
61.55,486.4135
61.6,482.1207
61.65,478.6944
61.7,475.2958
61.75,472.4176
61.8,469.9866
61.85,467.6974
61.9,465.1963
61.95,463.4
62,461.893
62.05,461.0123
62.1,459.6844
62.15,459.0894
62.2,457.7052
62.25,454.5205
62.3,450.2342
62.35,446.7853
62.4,444.1186
62.45,441.6317
62.5,438.2114
62.55,434.2869
62.6,430.1883
62.65,425.5648
62.7,421.8336
62.75,419.4145
62.8,416.73
62.85,413.9785
62.9,410.9709
62.95,408.1104
63,406.1106
63.05,403.8173
63.1,401.2634
63.15,398.5353
63.2,394.993
63.25,391.4039
63.3,387.3736
63.35,382.8654
63.4,378.6836
63.45,375.0951
63.5,371.9523
63.55,368.6808
63.6,364.7988
63.65,360.4703
63.7,356.4365
63.75,353.3883
63.8,350.893
63.85,348.4453
63.9,346.5548
63.95,344.2301
64,341.4431
64.05,338.562
64.1,335.0894
64.15,332.6902
64.2,329.3739
64.25,325.8942
64.3,322.6289
64.35,318.3706
64.4,313.903
64.45,309.5503
64.5,305.7397
64.55,302.9269
64.6,299.8632
64.65,297.6106
64.7,295.3055
64.75,293.2447
64.8,291.391
64.85,288.9825
64.9,286.4596
64.95,284.1501
65,282.0652
65.05,280.1694
65.1,277.8128
65.15,274.5902
65.2,270.729
65.25,266.9242
65.3,263.6792
65.35,261.0923
65.4,258.8629
65.45,256.7937
65.5,254.853
65.55,252.8963
65.6,250.8711
65.65,248.7163
65.7,246.5401
65.75,244.5084
65.8,242.5515
65.85,240.4103
65.9,238.8612
65.95,237.0131
66,234.7712
66.05,232.4302
66.1,230.2263
66.15,228.0658
66.2,226.3916
66.25,224.6408
66.3,223.6866
66.35,222.006
66.4,219.842
66.45,218.4673
66.5,216.9883
66.55,215.3692
66.6,213.5434
66.65,211.5428
66.7,210.3775
66.75,208.8555
66.8,207.9574
66.85,207.4364
66.9,206.7958
66.95,206.0418
67,205.1058
67.05,203.8709
67.1,202.5042
67.15,200.8618
67.2,199.589
67.25,198.7919
67.3,198.3409
67.35,197.8555
67.4,197.0994
67.45,196.4873
67.5,196.2235
67.55,196.15
67.6,195.8463
67.65,195.483
67.7,195.1284
67.75,195.3277
67.8,195.6268
67.85,196.2194
67.9,196.4083
67.95,196.7022
68,196.5534
68.05,196.7212
68.1,196.5377
68.15,196.3784
68.2,195.756
68.25,195.2778
68.3,194.5368
68.35,194.9231
68.4,195.0146
68.45,196.0514
68.5,197.3282
68.55,198.8268
68.6,200.4407
68.65,201.4149
68.7,202.8407
68.75,204.4991
68.8,206.2984
68.85,208.1137
68.9,209.2323
68.95,210.1543
69,211.3562
69.05,213.0358
69.1,215.1392
69.15,216.8114
69.2,217.9702
69.25,218.8311
69.3,219.4706
69.35,220.6669
69.4,222.8266
69.45,225.1999
69.5,227.4073
69.55,229.7413
69.6,232.3277
69.65,235.6988
69.7,238.9487
69.75,242.029
69.8,246.0912
69.85,250.152
69.9,254.3818
69.95,258.7909
70,263.7419
70.05,269.3396
70.1,275.2155
70.15,281.1949
70.2,287.69
70.25,293.8028
70.3,298.0485
70.35,301.702
70.4,305.7031
70.45,308.9498
70.5,312.0768
70.55,315.4776
70.6,319.8288
70.65,324.5714
70.7,328.3863
70.75,331.9802
70.8,335.0487
70.85,337.2
70.9,339.6463
70.95,342.8527
71,345.9259
71.05,348.4529
71.1,350.1892
71.15,351.1059
71.2,352.3526
71.25,354.2391
71.3,356.6303
71.35,359.3456
71.4,361.688
71.45,363.6279
71.5,364.2665
71.55,363.6962
71.6,363.4881
71.65,363.3979
71.7,363.5212
71.75,364.7416
71.8,366.2615
71.85,367.6877
71.9,368.3681
71.95,369.6354
72,371.7032
72.05,373.4649
72.1,375.0341
72.15,377.2829
72.2,378.9458
72.25,379.345
72.3,379.8686
72.35,381.4065
72.4,383.2605
72.45,384.459
72.5,386.9539
72.55,390.3697
72.6,392.6585
72.65,393.4178
72.7,394.1282
72.75,395.476
72.8,397.455
72.85,399.4853
72.9,402.777
72.95,406.4072
73,409.1595
73.05,411.2615
73.1,413.2765
73.15,414.9669
73.2,415.67
73.25,416.1445
73.3,417.5112
73.35,419.7283
73.4,422.6073
73.45,425.7873
73.5,428.5126
73.55,430.151
73.6,431.6523
73.65,432.8513
73.7,434.113
73.75,435.1846
73.8,437.0832
73.85,439.3283
73.9,440.9926
73.95,441.86
74,443.2936
74.05,444.3878
74.1,446.5982
74.15,448.1925
74.2,448.8846
74.25,448.9865
74.3,450.0425
74.35,450.1795
74.4,450.9853
74.45,451.8173
74.5,450.9792
74.55,449.0845
74.6,447.8743
74.65,448.4086
74.7,449.669
74.75,449.8666
74.8,449.3366
74.85,447.6327
74.9,446.2135
74.95,446.0773
75,446.3616
75.05,446.2049
75.1,445.5898
75.15,444.0033
75.2,441.9881
75.25,440.9767
75.3,440.3901
75.35,439.4503
75.4,437.9245
75.45,435.4012
75.5,432.4145
75.55,430.5424
75.6,429.0935
75.65,428.6449
75.7,427.8658
75.75,426.394
75.8,425.2401
75.85,422.026
75.9,418.487
75.95,415.3897
76,412.0638
76.05,409.5001
76.1,407.9089
76.15,404.6581
76.2,400.4201
76.25,396.7018
76.3,393.4976
76.35,390.8095
76.4,389.8186
76.45,388.5395
76.5,386.8974
76.55,384.2096
76.6,381.121
76.65,379.2217
76.7,376.9058
76.75,374.222
76.8,371.5298
76.85,367.943
76.9,364.562
76.95,362.1691
77,360.3771
77.05,358.8856
77.1,356.5134
77.15,352.9874
77.2,349.6219
77.25,346.6675
77.3,344.1659
77.35,342.347
77.4,340.0671
77.45,336.9968
77.5,334.4498
77.55,332.8257
77.6,330.9354
77.65,328.6374
77.7,325.2768
77.75,322.1275
77.8,319.6645
77.85,317.5389
77.9,315.5044
77.95,313.4847
78,310.9998
78.05,308.1278
78.1,305.81
78.15,305.1382
78.2,304.9507
78.25,303.7131
78.3,302.1215
78.35,300.4844
78.4,297.9441
78.45,295.6255
78.5,294.0998
78.55,292.695
78.6,291.5562
78.65,290.9413
78.7,289.9863
78.75,288.0001
78.8,286.0289
78.85,284.8708
78.9,283.7121
78.95,282.3975
79,281.109
79.05,279.63
79.1,278.013
79.15,276.4989
79.2,275.7024
79.25,275.9938
79.3,276.418
79.35,275.8809
79.4,275.073
79.45,274.4739
79.5,274.3031
79.55,273.7808
79.6,273.8065
79.65,274.8683
79.7,275.2047
79.75,274.0442
79.8,273.0336
79.85,271.5436
79.9,271.2153
79.95,270.5694
80,271.157
80.05,272.2249
80.1,273.245
80.15,273.7004
80.2,273.7904
80.25,273.7227
80.3,274.119
80.35,273.8675
80.4,274.0529
80.45,274.4291
80.5,274.9605
80.55,275.1227
80.6,275.3631
80.65,275.995
80.7,276.7277
80.75,277.521
80.8,279.0518
80.85,281.024
80.9,282.1884
80.95,282.0426
81,281.8586
81.05,282.5829
81.1,283.6936
81.15,285.5516
81.2,288.2427
81.25,290.3274
81.3,291.6155
81.35,292.5959
81.4,293.3566
81.45,293.6195
81.5,294.0753
81.55,295.305
81.6,297.2049
81.65,299.7764
81.7,301.9643
81.75,303.7498
81.8,304.1597
81.85,304.5476
81.9,305.6225
81.95,307.2184
82,309.5998
82.05,312.924
82.1,315.1836
82.15,317.361
82.2,319.3031
82.25,321.9597
82.3,324.6587
82.35,328.4023
82.4,332.2924
82.45,335.1249
82.5,336.9842
82.55,338.3637
82.6,339.4777
82.65,341.2469
82.7,344.1248
82.75,347.1941
82.8,350.2219
82.85,353.8252
82.9,357.602
82.95,360.7963
83,363.5092
83.05,365.9984
83.1,368.0687
83.15,369.5381
83.2,371.2951
83.25,374.1689
83.3,377.2131
83.35,380.7894
83.4,385.2886
83.45,389.4073
83.5,392.3922
83.55,393.8464
83.6,394.7438
83.65,396.9528
83.7,398.2679
83.75,400.1048
83.8,403.3995
83.85,406.9479
83.9,408.6547
83.95,410.5414
84,414.0614
84.05,419.0638
84.1,421.6825
84.15,424.5314
84.2,427.9972
84.25,431.1262
84.3,433.3864
84.35,435.8279
84.4,438.4343
84.45,440.1085
84.5,441.0153
84.55,442.9952
84.6,445.5125
84.65,448.0722
84.7,450.9907
84.75,453.9274
84.8,455.6478
84.85,455.8772
84.9,456.0827
84.95,456.8539
85,457.693
85.05,458.8834
85.1,460.5505
85.15,462.3034
85.2,463.5486
85.25,464.3782
85.3,466.2708
85.35,468.4569
85.4,470.3062
85.45,472.0169
85.5,472.9344
85.55,472.6881
85.6,471.2994
85.65,468.9181
85.7,468.1924
85.75,467.9024
85.8,469.142
85.85,470.0139
85.9,468.9374
85.95,467.6123
86,466.2019
86.05,464.7046
86.1,464.2401
86.15,465.4075
86.2,466.3715
86.25,465.8113
86.3,463.3447
86.35,459.8473
86.4,455.8965
86.45,452.805
86.5,450.9762
86.55,450.1409
86.6,449.3699
86.65,447.697
86.7,444.4238
86.75,440.1426
86.8,436.4726
86.85,433.6864
86.9,430.9307
86.95,428.3478
87,426.0953
87.05,423.3387
87.1,420.3022
87.15,417.7718
87.2,415.5386
87.25,412.9919
87.3,409.5803
87.35,405.7315
87.4,402.5134
87.45,399.9416
87.5,397.6658
87.55,395.7968
87.6,394.1252
87.65,391.5093
87.7,388.1233
87.75,384.7054
87.8,382.462
87.85,380.6887
87.9,377.777
87.95,375.0708
88,372.7186
88.05,370.3646
88.1,368.281
88.15,367.7188
88.2,368.1533
88.25,367.2991
88.3,365.7768
88.35,363.491
88.4,360.9654
88.45,358.3269
88.5,356.0926
88.55,355.5163
88.6,355.6109
88.65,355.1936
88.7,355.0221
88.75,354.7768
88.8,353.7402
88.85,352.1574
88.9,350.7566
88.95,350.987
89,352.4285
89.05,353.5864
89.1,354.4211
89.15,355.541
89.2,356.2852
89.25,357.2068
89.3,359.6382
89.35,362.9316
89.4,365.3013
89.45,365.693
89.5,365.8341
89.55,367.1033
89.6,368.576
89.65,370.2652
89.7,373.442
89.75,376.829
89.8,380.8094
89.85,384.1259
89.9,387.0884
89.95,389.2364
90,390.9427
90.05,392.7094
90.1,396.0386
90.15,399.2238
90.2,402.1027
90.25,404.9541
90.3,407.918
90.35,411.3745
90.4,415.1296
90.45,418.5368
90.5,421.1877
90.55,422.9341
90.6,424.756
90.65,427.8875
90.7,432.6255
90.75,437.5547
90.8,441.3643
90.85,444.5301
90.9,447.3657
90.95,449.8293
91,452.0139
91.05,454.4344
91.1,456.3422
91.15,456.4491
91.2,455.3854
91.25,456.0506
91.3,457.754
91.35,460.132
91.4,462.8141
91.45,465.519
91.5,465.8452
91.55,463.6745
91.6,461.4895
91.65,460.1876
91.7,459.4656
91.75,459.5954
91.8,458.6503
91.85,456.6035
91.9,454.2432
91.95,452.2778
92,449.867
92.05,447.7646
92.1,446.3591
92.15,444.7659
92.2,441.0952
92.25,437.2412
92.3,433.5869
92.35,429.9375
92.4,426.455
92.45,424.825
92.5,423.4393
92.55,420.627
92.6,417.0498
92.65,413.0719
92.7,408.5722
92.75,403.929
92.8,399.7143
92.85,395.7731
92.9,391.6418
92.95,387.2449
93,383.7957
93.05,380.4962
93.1,377.7431
93.15,374.7095
93.2,370.4404
93.25,366.3285
93.3,362.6381
93.35,359.0734
93.4,356.0255
93.45,354.0532
93.5,353.3633
93.55,350.9183
93.6,346.9776
93.65,343.08
93.7,339.5768
93.75,335.2393
93.8,331.7431
93.85,328.6808
93.9,326.4271
93.95,324.2206
94,322.4765
94.05,320.7742
94.1,319.1117
94.15,316.7315
94.2,313.9076
94.25,310.8787
94.3,308.506
94.35,306.8011
94.4,305.6039
94.45,304.5529
94.5,303.1744
94.55,301.0138
94.6,297.8599
94.65,294.2981
94.7,290.7505
94.75,287.1736
94.8,283.7815
94.85,280.3293
94.9,276.6669
94.95,273.1627
95,268.9812
95.05,264.7437
95.1,261.8792
95.15,259.4997
95.2,257.3679
95.25,253.5402
95.3,247.9008
95.35,242.6305
95.4,238.1458
95.45,234.4286
95.5,232.0531
95.55,229.7618
95.6,226.4393
95.65,220.9828
95.7,215.7781
95.75,211.9597
95.8,208.4513
95.85,203.9719
95.9,200.5738
95.95,198.308
96,196.828
96.05,194.9592
96.1,192.0914
96.15,188.1053
96.2,182.9039
96.25,177.7315
96.3,174.2033
96.35,172.3369
96.4,171.0811
96.45,169.433
96.5,167.3741
96.55,165.378
96.6,163.1623
96.65,160.9336
96.7,159.4133
96.75,158.0029
96.8,156.2509
96.85,154.1981
96.9,151.7897
96.95,150.0804
97,148.7787
97.05,147.3314
97.1,146.0891
97.15,145.3156
97.2,144.3828
97.25,143.3153
97.3,142.3426
97.35,141.9237
97.4,141.0295
97.45,139.8561
97.5,139.0078
97.55,137.8851
97.6,136.5715
97.65,136.5638
97.7,137.8983
97.75,138.1716
97.8,137.8477
97.85,136.7827
97.9,135.6776
97.95,135.6165
98,137.043
98.05,139.0433
98.1,140.8699
98.15,141.7821
98.2,141.328
98.25,139.3857
98.3,137.5988
98.35,137.148
98.4,137.7504
98.45,139.0113
98.5,140.6065
98.55,141.7904
98.6,141.9228
98.65,141.4342
98.7,141.0859
98.75,140.9994
98.8,140.9608
98.85,140.7328
98.9,140.3457
98.95,140.7103
99,142.0207
99.05,144.1355
99.1,146.0625
99.15,146.6061
99.2,146.8424
99.25,146.6242
99.3,145.9241
99.35,144.795
99.4,143.5503
99.45,144.0823
99.5,144.9524
99.55,146.0861
99.6,147.0889
99.65,148.222
99.7,148.1439
99.75,147.0902
99.8,146.634
99.85,146.7734
99.9,146.4279
99.95,146.2953
100,147.0989
100.05,148.925
100.1,150.247
100.15,150.9313
100.2,151.0773
100.25,150.0771
100.3,148.9954
100.35,149.1974
100.4,150.0576
100.45,150.6938
100.5,150.9084
100.55,150.8018
100.6,150.5511
100.65,150.284
100.7,150.5097
100.75,150.6875
100.8,150.5925
100.85,150.0645
100.9,149.7695
100.95,149.0703
101,148.617
101.05,148.72
101.1,148.5269
101.15,147.7775
101.2,147.9184
101.25,148.9844
101.3,151.4019
101.35,150.7876
101.4,148.9474
101.45,147.8522
101.5,146.7682
101.55,146.5345
101.6,145.6709
101.65,145.3801
101.7,144.7729
101.75,142.8125
101.8,141.685
101.85,141.9833
101.9,142.9457
101.95,143.3437
102,143.1304
102.05,142.9835
102.1,142.3444
102.15,141.6122
102.2,141.9733
102.25,143.446
102.3,144.8534
102.35,144.8124
102.4,142.9676
102.45,140.0004
102.5,136.6295
102.55,133.9963
102.6,132.7924
102.65,132.0037
102.7,131.8545
102.75,132.9796
102.8,134.0631
102.85,134.6451
102.9,134.9554
102.95,134.5067
103,132.3069
103.05,129.6274
103.1,129.0275
103.15,130.4083
103.2,130.8619
103.25,130.9538
103.3,129.2365
103.35,124.2504
103.4,118.2929
103.45,114.5094
103.5,113.1578
103.55,113.3071
103.6,112.8083
103.65,111.9322
103.7,110.2856
103.75,108.1596
103.8,106.5433
103.85,105.3612
103.9,104.9118
103.95,104.4099
104,103.2455
104.05,101.5646
104.1,99.50986
104.15,97.24653
104.2,94.81894
104.25,92.08577
104.3,89.82789
104.35,88.34939
104.4,87.07552
104.45,85.63933
104.5,83.31679
104.55,80.54363
104.6,77.95214
104.65,74.67085
104.7,71.54231
104.75,69.7684
104.8,68.73454
104.85,67.56239
104.9,65.37614
104.95,64.01929
105,63.80695
105.05,62.37558
105.1,59.73244
105.15,56.5566
105.2,53.61758
105.25,50.50918
105.3,47.86241
105.35,47.44823
105.4,46.54652
105.45,44.82388
105.5,43.04512
105.55,41.43735
105.6,39.64649
105.65,37.53217
105.7,36.32302
105.75,35.81253
105.8,34.81277
105.85,34.23249
105.9,33.59377
105.95,31.90825
106,29.25482
106.05,26.76821
106.1,25.51364
106.15,25.18172
106.2,25.18483
106.25,24.98171
106.3,24.0162
106.35,22.26549
106.4,19.92349
106.45,17.70525
106.5,16.446
106.55,15.82192
106.6,15.15972
106.65,14.35549
106.7,13.51339
106.75,12.80247
106.8,11.88772
106.85,11.5182
106.9,11.40044
106.95,11.07699
107,10.35301
107.05,9.31942
107.1,8.039003
107.15,6.723756
107.2,6.213364
107.25,6.625734
107.3,6.929296
107.35,7.219094
107.4,7.174435
107.45,6.68032
107.5,5.992744
107.55,5.478405
107.6,5.431774
107.65,5.283032
107.7,4.710451
107.75,4.18749
107.8,3.725868
107.85,3.338345
107.9,3.017945
107.95,2.717128
108,2.413486
108.05,2.175973
108.1,2.251515
108.15,2.570349
108.2,2.805481
108.25,2.847679
108.3,2.527447
108.35,1.84371
108.4,1.266819
108.45,1.001657
108.5,0.983291
108.55,1.080412
108.6,1.145742
108.65,1.175019
108.7,0.9784018
108.75,0.7664766
108.8,0.7480366
108.85,0.6313384
108.9,0.5753898
108.95,0.4861128
109,0.3198604
109.05,0.2347589
109.1,0.1562443
109.15,0.2579454
109.2,0.3235371
109.25,0.2004262
109.3,0.1533034
109.35,0.1395758
109.4,0.2361989
109.45,0.212254
109.5,0.3449436
109.55,0.4952412
109.6,0.3326488
109.65,-7.595161E-02
109.7,-0.3449895
109.75,-0.404355
109.8,-0.4745704
109.85,-0.7714303
109.9,-0.9826602
109.95,-1.12113
110,-1.352614
110.05,-1.571008
110.1,-1.607969
110.15,-1.481866
110.2,-1.424149
110.25,-1.534031
110.3,-1.623126
110.35,-1.618232
110.4,-1.678057
110.45,-1.789849
110.5,-1.800401
110.55,-1.677991
110.6,-1.629168
110.65,-1.808515
110.7,-2.033676
110.75,-2.289902
110.8,-2.378341
110.85,-2.443122
110.9,-2.473228
110.95,-2.162048
111,-1.977878
111.05,-2.065038
111.1,-2.200382
111.15,-2.188516
111.2,-2.253395
111.25,-2.542424
111.3,-2.7163
111.35,-2.67642
111.4,-2.753164
111.45,-2.78214
111.5,-2.610737
111.55,-2.285154
111.6,-2.178062
111.65,-2.307991
111.7,-2.475776
111.75,-2.657371
111.8,-2.712802
111.85,-2.517379
111.9,-1.905573
111.95,-0.7817013
112,0.7796641
112.05,2.462463
112.1,4.547421
112.15,7.859623
112.2,12.92125
112.25,19.53355
112.3,27.1746
112.35,36.16167
112.4,46.94912
112.45,59.94607
112.5,74.76551
112.55,91.46623
112.6,109.434
112.65,126.7163
112.7,141.2483
112.75,152.5337
112.8,160.4248
112.85,166.4734
112.9,173.5729
112.95,178.8598
113,180.643
113.05,178.1799
113.1,170.4276
113.15,156.8297
113.2,139.9048
113.25,123.901
113.3,107.7452
113.35,92.0556
113.4,79.76646
113.45,69.8736
113.5,60.25773
113.55,50.47471
113.6,42.54961
113.65,35.84966
113.7,28.75288
113.75,23.04587
113.8,20.01468
113.85,18.40583
113.9,17.06855
113.95,15.47772
114,13.26666
114.05,10.26121
114.1,7.457553
114.15,6.496524
114.2,7.251438
114.25,8.107349
114.3,7.669322
114.35,5.870346
114.4,3.715757
114.45,2.35489
114.5,2.154986
114.55,2.248103
114.6,2.240633
114.65,2.158616
114.7,2.109403
114.75,1.719311
114.8,1.180382
114.85,0.5690894
114.9,-0.2194123
114.95,-0.6772224
115,-0.1903582
115.05,0.7689948
115.1,1.624813
115.15,1.807868
115.2,1.833357
115.25,1.982819
115.3,1.954464
115.35,2.071092
115.4,2.33416
115.45,2.345126
115.5,2.122626
115.55,1.603908
115.6,0.8708901
115.65,0.1744198
115.7,-0.2614092
115.75,-0.3722185
115.8,-0.3588252
115.85,-0.5713866
115.9,-0.9656715
115.95,-1.349718
116,-1.686689
116.05,-1.969733
116.1,-2.094595
116.15,-1.98178
116.2,-1.799521
116.25,-1.635304
116.3,-1.549611
116.35,-1.559575
116.4,-1.869947
116.45,-2.506239
116.5,-3.124213
116.55,-3.589303
116.6,-4.007414
116.65,-4.272429
116.7,-4.405746
116.75,-4.315741
116.8,-3.957989
116.85,-3.757075
116.9,-3.71921
116.95,-3.887978
117,-3.986969
117.05,-4.224397
117.1,-4.563496
117.15,-4.702589
117.2,-4.74039
117.25,-4.880466
117.3,-4.80332
117.35,-4.576509
117.4,-4.355611
117.45,-4.347073
117.5,-4.412606
117.55,-4.456083
117.6,-4.54861
117.65,-4.739678
117.7,-5.009303
117.75,-5.20313
117.8,-5.263422
117.85,-5.191744
117.9,-4.956954
117.95,-4.69079
118,-4.536932
118.05,-4.529325
118.1,-4.628463
118.15,-4.627626
118.2,-4.505249
118.25,-4.413223
118.3,-4.38943
118.35,-4.600599
118.4,-4.933776
118.45,-5.047962
118.5,-5.071596
118.55,-5.053095
118.6,-5.022377
118.65,-4.91241
118.7,-4.883328
118.75,-5.054554
118.8,-5.072373
118.85,-4.811885
118.9,-4.904977
118.95,-5.139713
119,-5.422264
119.05,-5.573083
119.1,-5.682335
119.15,-5.711561
119.2,-5.473926
119.25,-5.263879
119.3,-5.267123
119.35,-5.289188
119.4,-5.128869
119.45,-4.920341
119.5,-4.847969
119.55,-4.934971
119.6,-5.13314
119.65,-5.349458
119.7,-5.431123
119.75,-5.288845
119.8,-4.92982
119.85,-4.59476
119.9,-4.551815
119.95,-4.766205
120,-5.024876
120.05,-5.207228
120.1,-5.342712
120.15,-5.395408
120.2,-5.373549
120.25,-5.359195
120.3,-5.364116
120.35,-5.481314
120.4,-5.651879
120.45,-5.683507
120.5,-5.74186
120.55,-5.676284
120.6,-5.531322
120.65,-5.308642
120.7,-5.140878
120.75,-5.129063
120.8,-5.212493
120.85,-5.172987
120.9,-5.326569
120.95,-5.442569
121,-5.449769
121.05,-5.417241
121.1,-5.442127
121.15,-5.382473
121.2,-5.317606
121.25,-5.339834
121.3,-5.498155
121.35,-5.598181
121.4,-5.620207
121.45,-5.592443
121.5,-5.494816
121.55,-5.429787
121.6,-5.483581
121.65,-5.616449
121.7,-5.722146
121.75,-5.771454
121.8,-5.805484
121.85,-5.749263
121.9,-5.652207
121.95,-5.68401
122,-5.760518
122.05,-5.832281
122.1,-5.934439
122.15,-5.975965
122.2,-5.907382
122.25,-5.828287
122.3,-5.794847
122.35,-5.781797
122.4,-5.653129
122.45,-5.597434
122.5,-5.638541
122.55,-5.680907
122.6,-5.719982
122.65,-5.927386
122.7,-6.081897
122.75,-6.151917
122.8,-6.171584
122.85,-6.215745
122.9,-6.104788
122.95,-5.972959
123,-5.923102
123.05,-5.98252
123.1,-5.966117
123.15,-5.858776
123.2,-5.743175
123.25,-5.69319
123.3,-5.666316
123.35,-5.745621
123.4,-5.87407
123.45,-6.009711
123.5,-6.028715
123.55,-6.008505
123.6,-5.966722
123.65,-5.898811
123.7,-5.865557
123.75,-5.906614
123.8,-6.009964
123.85,-6.128749
123.9,-6.246911
123.95,-6.340033
124,-6.337414
124.05,-6.249571
124.1,-6.245183
124.15,-6.221955
124.2,-6.166953
124.25,-6.138446
124.3,-6.156801
124.35,-6.2055
124.4,-6.162931
124.45,-6.184804
124.5,-6.140596
124.55,-6.105912
124.6,-6.100575
124.65,-6.140054
124.7,-6.235748
124.75,-6.307731
124.8,-6.388346
124.85,-6.413221
124.9,-6.376462
124.95,-6.286308
125,-6.143067
125.05,-6.065585
125.1,-6.088995
125.15,-6.234881
125.2,-6.262642
125.25,-6.18038
125.3,-6.141238
125.35,-6.146756
125.4,-6.20041
125.45,-6.272188
125.5,-6.333183
125.55,-6.393907
125.6,-6.378727
125.65,-6.342379
125.7,-6.382243
125.75,-6.413478
125.8,-6.339298
125.85,-6.265062
125.9,-6.337782
125.95,-6.439409
126,-6.515918
126.05,-6.62306
126.1,-6.686582
126.15,-6.676994
126.2,-6.545476
126.25,-6.446226
126.3,-6.374962
126.35,-6.125875
126.4,-5.827381
126.45,-5.677169
126.5,-5.601593
126.55,-5.809238
126.6,-6.184387
126.65,-6.527637
126.7,-6.596494
126.75,-6.43603
126.8,-6.287043
126.85,-6.269303
126.9,-6.370053
126.95,-6.490261
127,-6.623224
127.05,-6.612666
127.1,-6.523467
127.15,-6.442992
127.2,-6.415884
127.25,-6.437757
127.3,-6.529848
127.35,-6.613896
127.4,-6.738768
127.45,-6.875426
127.5,-6.943615
127.55,-6.882764
127.6,-6.751924
127.65,-6.611521
127.7,-6.496133
127.75,-6.469878
127.8,-6.547359
127.85,-6.706079
127.9,-6.82541
127.95,-6.88547
128,-6.939045
128.05,-6.995607
128.1,-6.966531
128.15,-6.915542
128.2,-6.859508
128.25,-6.770294
128.3,-6.737725
128.35,-6.697481
128.4,-6.770705
128.45,-6.747133
128.5,-6.668872
128.55,-6.701874
128.6,-6.83532
128.65,-6.94679
128.7,-7.108925
128.75,-7.211344
128.8,-7.200788
128.85,-7.01038
128.9,-6.809992
128.95,-6.667062
129,-6.597682
129.05,-6.662387
129.1,-6.806221
129.15,-6.926037
129.2,-6.98465
129.25,-7.105324
129.3,-7.172777
129.35,-7.101099
129.4,-6.960941
129.45,-6.877424
129.5,-6.904178
129.55,-7.037005
129.6,-7.157207
129.65,-7.20853
129.7,-7.212032
129.75,-7.141056
129.8,-7.069701
129.85,-7.040309
129.9,-7.118078
129.95,-7.208767
130,-7.211971
130.05,-7.1826
130.1,-7.293378
130.15,-7.211062
130.2,-7.095995
130.25,-7.071882
130.3,-7.144594
130.35,-7.152793
130.4,-7.274014
130.45,-7.348088
130.5,-7.400573
130.55,-7.382797
130.6,-7.53346
130.65,-7.49542
130.7,-7.303618
130.75,-7.055452
130.8,-6.915334
130.85,-6.795406
130.9,-6.898837
130.95,-7.130595
131,-7.275091
131.05,-7.333236
131.1,-7.302396
131.15,-7.258671
131.2,-7.280676
131.25,-7.315972
131.3,-7.412736
131.35,-7.503788
131.4,-7.546358
131.45,-7.574576
131.5,-7.592471
131.55,-7.589056
131.6,-7.527056
131.65,-7.433537
131.7,-7.387323
131.75,-7.397692
131.8,-7.44957
131.85,-7.510356
131.9,-7.598371
131.95,-7.708338
132,-7.753697
132.05,-7.7833
132.1,-7.668634
132.15,-7.521626
132.2,-7.399704
132.25,-7.352516
132.3,-7.46603
132.35,-7.6032
132.4,-7.661694
132.45,-7.583256
132.5,-7.427545
132.55,-7.346933
132.6,-7.312588
132.65,-7.346686
132.7,-7.317299
132.75,-7.230965
132.8,-7.247416
132.85,-7.334876
132.9,-7.484231
132.95,-7.641706
133,-7.732226
133.05,-7.739951
133.1,-7.705739
133.15,-7.693295
133.2,-7.711124
133.25,-7.724854
133.3,-7.753179
133.35,-7.779364
133.4,-7.732651
133.45,-7.599884
133.5,-7.442059
133.55,-7.360817
133.6,-7.436819
133.65,-7.634929
133.7,-7.835697
133.75,-7.95265
133.8,-7.987651
133.85,-7.961718
133.9,-7.834929
133.95,-7.765007
134,-7.80462
134.05,-7.894042
134.1,-7.933107
134.15,-7.941001
134.2,-7.914941
134.25,-8.029146
134.3,-7.962015
134.35,-7.934492
134.4,-7.956773
134.45,-7.826489
134.5,-7.768771
134.55,-7.820636
134.6,-7.945508
134.65,-8.017572
134.7,-7.915476
134.75,-7.760889
134.8,-7.635588
134.85,-7.52442
134.9,-7.537698
134.95,-7.604194
135,-7.69553
135.05,-7.732479
135.1,-7.795407
135.15,-7.833192
135.2,-7.912416
135.25,-7.949816
135.3,-7.930883
135.35,-7.92381
135.4,-7.902149
135.45,-7.815134
135.5,-7.709054
135.55,-7.660461
135.6,-7.688784
135.65,-7.824116
135.7,-7.954588
135.75,-8.012166
135.8,-7.987369
135.85,-7.941731
135.9,-7.875645
135.95,-7.884754
136,-7.977501
136.05,-8.131282
136.1,-8.246798
136.15,-8.219234
136.2,-8.150025
136.25,-8.083854
136.3,-7.979506
136.35,-7.99613
136.4,-8.071089
136.45,-8.152547
136.5,-8.23955
136.55,-8.269067
136.6,-8.173897
136.65,-8.103401
136.7,-7.982304
136.75,-8.01475
136.8,-8.081786
136.85,-8.069787
136.9,-8.085308
136.95,-8.08039
137,-8.067198
137.05,-8.138454
137.1,-8.224172
137.15,-8.315996
137.2,-8.390862
137.25,-8.451361
137.3,-8.468248
137.35,-8.401887
137.4,-8.294052
137.45,-8.208058
137.5,-8.196482
137.55,-8.28181
137.6,-8.448087
137.65,-8.619814
137.7,-8.676751
137.75,-8.527379
137.8,-8.329836
137.85,-8.094172
137.9,-7.980093
137.95,-8.044175
138,-8.202014
 
Alignment,On
