Data File Name,mSp_scATAC_High Sensitivity DNA Assay_DEDAE00427_2018-04-22_14-42-26.xad
Data File Path,C:\Users\AgilentP302\Documents\Xi\2018-04-22
Date Created,22 April 2018 13:42:26
Date Last Modified,22 April 2018 14:22:51
Version Created,B.02.09.SI725
Version Last Modified,B.02.09.SI725
 
Assay Name,High Sensitivity DNA
Assay Path,C:\Program Files (x86)\Agilent\2100 bioanalyzer\2100 expert\assays\dsDNA
Assay Title,High Sensitivity DNA Assay
Assay Version,1.03
 
Number of Samples Run,11
 
Sample Name,rep7
Number of Events,2121
 
Time,Value
32,0.1333313
32.05,0.1333313
32.1,0.1333313
32.15,0.1333313
32.2,0.1333313
32.25,0.1333313
32.3,0.1333313
32.35,0.1333313
32.4,0.1333313
32.45,0.1333313
32.5,0.1333313
32.55,0.1333313
32.6,0.1333313
32.65,0.1333313
32.7,0.1333313
32.75,0.1333313
32.8,0.1333313
32.85,0.1333313
32.9,0.1333313
32.95,0.1333313
33,9.559871E-02
33.05,5.968062E-02
33.1,5.041856E-02
33.15,0.1005883
33.2,4.818142E-02
33.25,-9.809801E-02
33.3,-0.1618358
33.35,-0.1413177
33.4,-3.663767E-02
33.45,6.671767E-02
33.5,8.368631E-02
33.55,4.948279E-02
33.6,-1.529254E-02
33.65,-4.239682E-02
33.7,-5.583538E-02
33.75,-0.13214
33.8,-5.993906E-02
33.85,3.408147E-02
33.9,4.378284E-02
33.95,4.753499E-02
34,9.168474E-02
34.05,0.1197379
34.1,6.175473E-02
34.15,7.329954E-02
34.2,0.1453327
34.25,8.787663E-02
34.3,-7.822511E-02
34.35,-0.1881912
34.4,-0.2095534
34.45,-0.1888849
34.5,-0.1547508
34.55,-0.1166556
34.6,-4.657007E-02
34.65,-8.805871E-02
34.7,-0.1276883
34.75,-0.1456068
34.8,-0.2141407
34.85,-0.2768276
34.9,-0.240102
34.95,-0.309608
35,-0.2266866
35.05,-0.1837349
35.1,-0.1375294
35.15,-0.1646035
35.2,-0.1347956
35.25,-6.873336E-02
35.3,-1.565863E-02
35.35,-0.0740375
35.4,-0.1242579
35.45,-0.1742648
35.5,-0.2442025
35.55,-0.3113395
35.6,-0.3242799
35.65,-0.3272
35.7,-0.3453708
35.75,-0.3294514
35.8,-0.2899555
35.85,-0.2381553
35.9,-0.2329234
35.95,-0.2345637
36,-0.2314433
36.05,-0.266267
36.1,-0.2884616
36.15,-0.2265591
36.2,-0.2639671
36.25,-0.264891
36.3,-0.2258113
36.35,-0.2878929
36.4,-0.3943338
36.45,-0.366579
36.5,-0.4016284
36.55,-0.3165342
36.6,-0.2129733
36.65,-9.350866E-02
36.7,-7.770117E-02
36.75,-0.1862224
36.8,-0.2364902
36.85,-0.2089879
36.9,-0.2128426
36.95,-0.2088243
37,-0.201305
37.05,-0.2557135
37.1,-0.3248859
37.15,-0.3643199
37.2,-0.3602057
37.25,-0.3301328
37.3,-0.313753
37.35,-0.2919536
37.4,-0.3512414
37.45,-0.3948882
37.5,-0.4468402
37.55,-0.5203547
37.6,-0.5580218
37.65,-0.6090204
37.7,-0.4618157
37.75,-0.3478429
37.8,-0.2998974
37.85,-0.2601969
37.9,-0.3187358
37.95,-0.4047931
38,-0.4667114
38.05,-0.4979412
38.1,-0.4478134
38.15,-0.4313013
38.2,-0.4000147
38.25,-0.3751673
38.3,-0.3837587
38.35,-0.4502731
38.4,-0.5548442
38.45,-0.6025801
38.5,-0.5853754
38.55,-0.5116045
38.6,-0.4693337
38.65,-0.4293474
38.7,-0.4494499
38.75,-0.4573363
38.8,-0.5083246
38.85,-0.454085
38.9,-0.6072698
38.95,-0.6549337
39,-0.8254152
39.05,-0.8254997
39.1,-0.7760081
39.15,-0.6527068
39.2,-0.4929672
39.25,-0.4552383
39.3,-0.5565585
39.35,-0.5712619
39.4,-0.7173596
39.45,-0.9063921
39.5,-0.9374137
39.55,-0.840529
39.6,-0.6490925
39.65,-0.5087049
39.7,-0.4724319
39.75,-0.4549856
39.8,-0.5116467
39.85,-0.6112503
39.9,-0.6088353
39.95,-0.5557106
40,-0.5623633
40.05,-0.6423709
40.1,-0.8061481
40.15,-0.9125988
40.2,-0.9196418
40.25,-0.8879593
40.3,-0.7653284
40.35,-0.7129234
40.4,-0.7076305
40.45,-0.7331712
40.5,-0.70257
40.55,-0.6622511
40.6,-0.6349823
40.65,-0.6481485
40.7,-0.6810175
40.75,-0.7509363
40.8,-0.7743574
40.85,-0.760923
40.9,-0.7774064
40.95,-0.8265882
41,-0.838222
41.05,-0.8311834
41.1,-0.8188447
41.15,-0.8141508
41.2,-0.8413492
41.25,-0.784857
41.3,-0.7726243
41.35,-0.7750911
41.4,-0.7218142
41.45,-0.696147
41.5,-0.8871111
41.55,-0.9103441
41.6,-0.9095902
41.65,-0.7627508
41.7,-0.7044796
41.75,-0.6478136
41.8,-0.6575851
41.85,-0.7589776
41.9,-0.929091
41.95,-0.9416159
42,-0.9679616
42.05,-0.9585484
42.1,-0.8680705
42.15,-0.7833451
42.2,-0.7743686
42.25,-0.7038985
42.3,-0.5671509
42.35,-0.4433193
42.4,-0.322027
42.45,-9.189229E-02
42.5,0.4464916
42.55,1.625412
42.6,4.071733
42.65,8.581289
42.7,15.92835
42.75,26.33254
42.8,39.68818
42.85,54.81763
42.9,70.15876
42.95,82.64386
43,89.93105
43.05,89.79582
43.1,82.38598
43.15,69.51575
43.2,53.80804
43.25,38.0895
43.3,24.5853
43.35,14.21371
43.4,7.273293
43.45,3.099926
43.5,0.9340796
43.55,3.462595E-02
43.6,-0.2752802
43.65,-0.349556
43.7,-0.3717037
43.75,-0.3895858
43.8,-0.4060391
43.85,-0.4456623
43.9,-0.4420545
43.95,-0.4168035
44,-0.3558782
44.05,-0.2623002
44.1,-0.210164
44.15,-0.1642102
44.2,-0.184971
44.25,-0.3486865
44.3,-0.3829938
44.35,-0.4073524
44.4,-0.3459723
44.45,-0.2812993
44.5,-0.2272252
44.55,-0.2258756
44.6,-0.3337595
44.65,-0.3888865
44.7,-0.3627231
44.75,-0.2546763
44.8,-0.1619721
44.85,-3.374177E-02
44.9,3.545795E-02
44.95,9.564793E-02
45,0.1807689
45.05,0.3043418
45.1,0.4783771
45.15,0.6659091
45.2,0.8290889
45.25,0.9243959
45.3,0.9907069
45.35,1.038016
45.4,1.164072
45.45,1.287499
45.5,1.413501
45.55,1.528009
45.6,1.587
45.65,1.626392
45.7,1.736315
45.75,1.881736
45.8,2.009728
45.85,2.003455
45.9,2.001866
45.95,2.076392
46,2.233407
46.05,2.301617
46.1,2.331918
46.15,2.205674
46.2,1.96275
46.25,1.669705
46.3,1.384848
46.35,1.173024
46.4,1.010194
46.45,0.8312414
46.5,0.6298096
46.55,0.4205161
46.6,0.2274081
46.65,0.0866358
46.7,-5.993935E-02
46.75,-0.2264193
46.8,-0.3062695
46.85,-0.4351784
46.9,-0.5769408
46.95,-0.7043411
47,-0.8586881
47.05,-0.9985229
47.1,-1.051534
47.15,-1.054534
47.2,-1.055104
47.25,-1.107945
47.3,-1.039162
47.35,-0.953817
47.4,-0.8732195
47.45,-0.7587644
47.5,-0.6005068
47.55,-0.47204
47.6,-0.4737798
47.65,-0.5746951
47.7,-0.7106313
47.75,-0.8936149
47.8,-1.094785
47.85,-1.250874
47.9,-1.321748
47.95,-1.302249
48,-1.287282
48.05,-1.266735
48.1,-1.27104
48.15,-1.428615
48.2,-1.559061
48.25,-1.769098
48.3,-1.822595
48.35,-1.776824
48.4,-1.686478
48.45,-1.50456
48.5,-1.414291
48.55,-1.398917
48.6,-1.259362
48.65,-1.169022
48.7,-1.131085
48.75,-1.236143
48.8,-1.357384
48.85,-1.481605
48.9,-1.611964
48.95,-1.574068
49,-1.441655
49.05,-1.303914
49.1,-1.170154
49.15,-0.9945667
49.2,-0.7813884
49.25,-0.6336408
49.3,-0.520259
49.35,-0.4636227
49.4,-0.4512938
49.45,-0.4681579
49.5,-0.4208387
49.55,-0.2640901
49.6,-0.1665768
49.65,-7.968622E-02
49.7,0.1628805
49.75,0.5284935
49.8,1.119805
49.85,1.856566
49.9,2.494432
49.95,3.080561
50,3.688839
50.05,4.304809
50.1,4.735849
50.15,4.863177
50.2,4.565822
50.25,4.001762
50.3,3.348835
50.35,2.775801
50.4,2.324702
50.45,2.007484
50.5,1.787493
50.55,1.604328
50.6,1.537233
50.65,1.598603
50.7,1.7102
50.75,1.79901
50.8,1.815539
50.85,1.800808
50.9,1.783914
50.95,1.684513
51,1.769775
51.05,1.904294
51.1,2.248988
51.15,2.77979
51.2,3.359084
51.25,3.878581
51.3,4.346689
51.35,4.752425
51.4,5.193929
51.45,5.692622
51.5,6.138505
51.55,6.620867
51.6,7.206972
51.65,8.059479
51.7,9.325822
51.75,11.00973
51.8,13.06552
51.85,15.45073
51.9,18.02224
51.95,20.59351
52,23.02381
52.05,25.10841
52.1,26.7043
52.15,27.53748
52.2,27.53237
52.25,26.95766
52.3,26.37224
52.35,25.69591
52.4,25.01572
52.45,24.6742
52.5,24.20481
52.55,23.37923
52.6,21.97602
52.65,20.07321
52.7,17.4923
52.75,14.3637
52.8,11.15705
52.85,8.274608
52.9,5.816998
52.95,3.887918
53,2.550218
53.05,1.70566
53.1,1.136128
53.15,0.7585781
53.2,0.5549921
53.25,0.437106
53.3,0.3293837
53.35,0.1862188
53.4,9.461065E-02
53.45,6.599835E-02
53.5,-7.129612E-03
53.55,-0.1359535
53.6,-0.2830846
53.65,-0.3653986
53.7,-0.451634
53.75,-0.6084234
53.8,-0.7173257
53.85,-0.839387
53.9,-1.05801
53.95,-1.244439
54,-1.424127
54.05,-1.400914
54.1,-1.263198
54.15,-1.173998
54.2,-1.111182
54.25,-1.175135
54.3,-1.270402
54.35,-1.268461
54.4,-1.243023
54.45,-1.216084
54.5,-1.201258
54.55,-1.224844
54.6,-1.232124
54.65,-1.239099
54.7,-1.225019
54.75,-1.162816
54.8,-1.275972
54.85,-1.402798
54.9,-1.464618
54.95,-1.395839
55,-1.292794
55.05,-1.170003
55.1,-1.08331
55.15,-1.05078
55.2,-1.090796
55.25,-1.030391
55.3,-1.115934
55.35,-1.142123
55.4,-1.148782
55.45,-1.161555
55.5,-1.151934
55.55,-1.094873
55.6,-0.989497
55.65,-0.954904
55.7,-0.9945962
55.75,-0.9686385
55.8,-0.9162664
55.85,-0.9005013
55.9,-0.9149039
55.95,-0.9362136
56,-0.8929759
56.05,-0.8361115
56.1,-0.7744166
56.15,-0.6513848
56.2,-0.4721806
56.25,-0.3961307
56.3,-0.2462307
56.35,-0.1884115
56.4,-3.686658E-02
56.45,5.963788E-02
56.5,0.109942
56.55,0.1630259
56.6,0.2648709
56.65,0.3585265
56.7,0.4072036
56.75,0.4736136
56.8,0.6912063
56.85,0.907144
56.9,1.096594
56.95,1.294071
57,1.369876
57.05,1.394165
57.1,1.45339
57.15,1.557003
57.2,1.738993
57.25,2.055429
57.3,2.481034
57.35,2.870283
57.4,3.097513
57.45,3.183681
57.5,3.397663
57.55,3.676609
57.6,4.041974
57.65,4.695403
57.7,5.355887
57.75,5.9647
57.8,6.84496
57.85,7.86371
57.9,9.159251
57.95,10.58106
58,12.25616
58.05,14.07676
58.1,16.1966
58.15,18.63922
58.2,21.36568
58.25,24.44469
58.3,28.09697
58.35,32.28954
58.4,36.86502
58.45,41.56305
58.5,46.58836
58.55,51.87379
58.6,57.34748
58.65,63.50598
58.7,70.53952
58.75,78.33911
58.8,86.35107
58.85,94.74917
58.9,103.9795
58.95,114.0697
59,124.4704
59.05,136.4353
59.1,148.4774
59.15,160.2737
59.2,171.2783
59.25,180.9714
59.3,189.0796
59.35,195.7681
59.4,201.2639
59.45,206.7201
59.5,211.2688
59.55,214.5629
59.6,217.2493
59.65,219.5712
59.7,222.2125
59.75,225.4793
59.8,229.3043
59.85,234.0831
59.9,239.264
59.95,244.2748
60,249.6033
60.05,254.7294
60.1,259.0879
60.15,263.0014
60.2,266.1188
60.25,268.4859
60.3,269.3834
60.35,268.901
60.4,267.6966
60.45,265.6645
60.5,262.6619
60.55,260.9674
60.6,259.8108
60.65,258.6352
60.7,257.2167
60.75,256.8079
60.8,256.8795
60.85,256.8691
60.9,257.0902
60.95,257.7655
61,258.2419
61.05,258.5533
61.1,258.7133
61.15,258.5923
61.2,258.5026
61.25,258.1446
61.3,257.2511
61.35,256.0374
61.4,254.1773
61.45,251.8895
61.5,249.3122
61.55,246.6431
61.6,244.6448
61.65,243.0643
61.7,241.5527
61.75,240.58
61.8,240.3798
61.85,240.6451
61.9,241.1812
61.95,241.4025
62,240.7182
62.05,239.3488
62.1,237.3434
62.15,235.0035
62.2,233.2468
62.25,231.1956
62.3,229.2192
62.35,227.5677
62.4,225.9861
62.45,224.0937
62.5,221.8882
62.55,219.8699
62.6,218.2644
62.65,216.812
62.7,215.4605
62.75,214.2285
62.8,212.8926
62.85,211.6054
62.9,210.3922
62.95,209.0054
63,207.7388
63.05,206.6373
63.1,205.3473
63.15,203.993
63.2,202.0361
63.25,199.9675
63.3,197.6168
63.35,195.1036
63.4,193.2437
63.45,191.4104
63.5,189.8447
63.55,188.518
63.6,187.2308
63.65,185.8325
63.7,184.4929
63.75,183.4765
63.8,182.7398
63.85,181.5455
63.9,179.7955
63.95,177.791
64,175.4242
64.05,172.896
64.1,170.6611
64.15,168.8065
64.2,166.9751
64.25,165.3016
64.3,163.6533
64.35,162.0105
64.4,160.7043
64.45,159.6779
64.5,158.9913
64.55,158.5964
64.6,158.2712
64.65,157.8713
64.7,156.8096
64.75,154.5311
64.8,151.995
64.85,149.8016
64.9,147.8413
64.95,146.9423
65,146.3176
65.05,145.1485
65.1,143.2584
65.15,140.9004
65.2,138.8326
65.25,137.2393
65.3,136.0516
65.35,135.2575
65.4,134.2759
65.45,132.9048
65.5,131.7722
65.55,131.3971
65.6,131.1918
65.65,130.5108
65.7,129.3412
65.75,128.1137
65.8,126.5042
65.85,124.8205
65.9,123.376
65.95,122.4059
66,120.7957
66.05,119.0774
66.1,117.9738
66.15,117.1695
66.2,116.6086
66.25,116.1739
66.3,115.7928
66.35,115.5418
66.4,115.1121
66.45,114.6959
66.5,114.0518
66.55,113.0847
66.6,112.1763
66.65,111.4342
66.7,110.7263
66.75,110.024
66.8,109.2932
66.85,108.4324
66.9,107.71
66.95,107.3947
67,106.9476
67.05,106.5501
67.1,106.5186
67.15,106.2989
67.2,105.7367
67.25,105.3699
67.3,105.2485
67.35,105.6961
67.4,106.0609
67.45,107.0326
67.5,107.267
67.55,106.4024
67.6,105.5975
67.65,105.3068
67.7,105.3218
67.75,105.4496
67.8,105.6217
67.85,105.6127
67.9,105.2061
67.95,104.856
68,105.0143
68.05,105.4455
68.1,105.8017
68.15,105.9434
68.2,105.9996
68.25,106.1808
68.3,106.7266
68.35,107.8527
68.4,109.305
68.45,110.4428
68.5,111.1876
68.55,111.7651
68.6,112.5807
68.65,113.6416
68.7,114.1978
68.75,114.8311
68.8,115.5742
68.85,116.074
68.9,116.4427
68.95,117.3929
69,118.2567
69.05,118.8385
69.1,119.3118
69.15,120.4793
69.2,122.1622
69.25,123.8027
69.3,125.722
69.35,127.9577
69.4,129.9478
69.45,131.7839
69.5,133.9724
69.55,136.5533
69.6,139.2218
69.65,141.8151
69.7,144.6577
69.75,147.9491
69.8,151.1292
69.85,154.5497
69.9,157.4769
69.95,160.1369
70,162.9594
70.05,165.6902
70.1,168.4918
70.15,170.666
70.2,172.9206
70.25,175.1659
70.3,177.5163
70.35,179.9458
70.4,182.5952
70.45,184.9827
70.5,187.1556
70.55,189.1628
70.6,191.2366
70.65,192.9663
70.7,194.237
70.75,195.3675
70.8,196.4404
70.85,198.1784
70.9,199.9356
70.95,201.7072
71,203.106
71.05,203.7281
71.1,203.8029
71.15,203.9489
71.2,203.718
71.25,203.7762
71.3,203.7522
71.35,203.9807
71.4,205.3563
71.45,206.7043
71.5,207.5337
71.55,208.3182
71.6,209.1904
71.65,210.017
71.7,210.7313
71.75,211.545
71.8,212.3373
71.85,212.3646
71.9,212.3772
71.95,213.1405
72,214.57
72.05,216.038
72.1,217.1454
72.15,218.4388
72.2,219.8117
72.25,220.9711
72.3,222.2656
72.35,223.7374
72.4,225.0595
72.45,226.6597
72.5,227.5984
72.55,228.8222
72.6,230.5036
72.65,232.0631
72.7,233.0722
72.75,234.6468
72.8,236.0382
72.85,237.3773
72.9,238.4096
72.95,239.5885
73,240.9148
73.05,241.4921
73.1,241.6758
73.15,242.4081
73.2,243.0322
73.25,243.1778
73.3,243.5887
73.35,244.8969
73.4,246.7947
73.45,248.5314
73.5,249.9966
73.55,251.0629
73.6,251.1704
73.65,251.2271
73.7,252.2765
73.75,254.0089
73.8,255.9269
73.85,257.3351
73.9,258.5431
73.95,258.4547
74,258.3206
74.05,258.9694
74.1,259.6061
74.15,259.0568
74.2,258.2047
74.25,257.2583
74.3,256.9609
74.35,257.1998
74.4,258.145
74.45,259.0463
74.5,259.2697
74.55,258.5058
74.6,257.4481
74.65,256.6756
74.7,256.5861
74.75,257.0154
74.8,257.187
74.85,256.8709
74.9,255.9669
74.95,255.0732
75,254.3816
75.05,253.7748
75.1,253.1568
75.15,252.1397
75.2,250.5863
75.25,248.787
75.3,247.4234
75.35,246.8686
75.4,246.1689
75.45,245.4922
75.5,244.7666
75.55,243.6551
75.6,242.6973
75.65,242.0107
75.7,241.9974
75.75,241.8736
75.8,240.7639
75.85,239.1974
75.9,237.5449
75.95,235.7525
76,234.067
76.05,232.9946
76.1,231.9046
76.15,229.9198
76.2,227.4476
76.25,224.9136
76.3,223.0474
76.35,221.6185
76.4,220.8333
76.45,220.56
76.5,220.0419
76.55,218.408
76.6,216.8208
76.65,214.6326
76.7,213.0242
76.75,211.328
76.8,209.8574
76.85,207.9677
76.9,206.5067
76.95,204.7394
77,203.1399
77.05,201.4102
77.1,199.6325
77.15,197.9473
77.2,196.809
77.25,195.8342
77.3,195.0474
77.35,193.9175
77.4,192.3966
77.45,191.137
77.5,189.7717
77.55,188.2144
77.6,186.6719
77.65,184.9737
77.7,183.3475
77.75,182.1385
77.8,180.3961
77.85,179.3164
77.9,177.8914
77.95,176.5479
78,176.065
78.05,175.453
78.1,175.7813
78.15,175.4502
78.2,174.2089
78.25,173.0035
78.3,171.4384
78.35,170.1463
78.4,169.2325
78.45,168.3384
78.5,168.0662
78.55,168.0195
78.6,168.0321
78.65,167.7632
78.7,166.6265
78.75,165.1455
78.8,163.9536
78.85,163.207
78.9,163.5558
78.95,164.6049
79,164.9262
79.05,164.7131
79.1,163.9305
79.15,163.1901
79.2,162.5401
79.25,162.4653
79.3,163.0258
79.35,162.7974
79.4,161.8476
79.45,161.4688
79.5,161.2775
79.55,161.1841
79.6,161.8
79.65,162.9441
79.7,162.8661
79.75,162.2768
79.8,161.6544
79.85,161.397
79.9,161.7243
79.95,162.5796
80,163.9437
80.05,164.8919
80.1,164.8482
80.15,164.5806
80.2,164.3995
80.25,164.3207
80.3,164.9994
80.35,166.0648
80.4,166.6698
80.45,167.2704
80.5,167.6256
80.55,166.5899
80.6,165.9972
80.65,166.3656
80.7,167.3057
80.75,168.7015
80.8,170.1334
80.85,171.7855
80.9,172.9747
80.95,173.0414
81,173.3028
81.05,173.2509
81.1,173.561
81.15,174.7896
81.2,176.3203
81.25,177.8766
81.3,179.6306
81.35,181.2198
81.4,182.4
81.45,183.4648
81.5,184.5327
81.55,185.4371
81.6,186.125
81.65,186.7635
81.7,187.6388
81.75,188.9967
81.8,190.8641
81.85,192.3883
81.9,193.6388
81.95,194.666
82,195.9663
82.05,197.4413
82.1,198.9697
82.15,200.7522
82.2,202.2848
82.25,203.8992
82.3,206.8869
82.35,210.0708
82.4,212.7104
82.45,215.0933
82.5,216.825
82.55,218.112
82.6,219.1212
82.65,220.7068
82.7,223.1456
82.75,225.5508
82.8,227.6557
82.85,230.2707
82.9,233.1469
82.95,235.2325
83,236.9832
83.05,238.2781
83.1,239.1877
83.15,240.115
83.2,241.4836
83.25,243.3854
83.3,245.6653
83.35,247.8822
83.4,250.0791
83.45,250.7791
83.5,250.7255
83.55,251.7134
83.6,253.5202
83.65,256.2019
83.7,258.8807
83.75,261.5394
83.8,263.6197
83.85,265.3958
83.9,266.8359
83.95,267.882
84,268.8834
84.05,270.1853
84.1,271.6481
84.15,273.0677
84.2,274.8394
84.25,277.2407
84.3,279.4654
84.35,281.1234
84.4,283.3235
84.45,285.4954
84.5,286.4189
84.55,286.8168
84.6,287.3768
84.65,287.2986
84.7,287.0006
84.75,287.4807
84.8,289.8887
84.85,291.9482
84.9,293.3111
84.95,295.3594
85,296.7145
85.05,296.9422
85.1,297.8516
85.15,299.7345
85.2,301.2688
85.25,301.627
85.3,301.1477
85.35,300.3423
85.4,299.7049
85.45,299.6728
85.5,300.5121
85.55,301.856
85.6,302.3835
85.65,301.8631
85.7,301.8282
85.75,302.1016
85.8,302.0018
85.85,301.2151
85.9,299.6275
85.95,298.0628
86,296.6272
86.05,295.5034
86.1,295.0508
86.15,294.6895
86.2,293.1392
86.25,291.1091
86.3,289.6042
86.35,288.6467
86.4,288.027
86.45,286.7908
86.5,284.735
86.55,282.1272
86.6,279.285
86.65,277.1576
86.7,275.7467
86.75,274.9481
86.8,274.0048
86.85,271.9719
86.9,269.3
86.95,266.3206
87,263.112
87.05,260.8902
87.1,260.1088
87.15,259.622
87.2,258.6778
87.25,257.3565
87.3,255.7846
87.35,253.1639
87.4,249.843
87.45,248.405
87.5,247.8544
87.55,247.5142
87.6,246.8248
87.65,245.7361
87.7,244.0349
87.75,242.0111
87.8,240.8858
87.85,240.9771
87.9,241.5787
87.95,242.0063
88,241.0627
88.05,238.9322
88.1,236.8862
88.15,235.1108
88.2,233.6126
88.25,232.796
88.3,232.5978
88.35,232.9236
88.4,233.305
88.45,233.4218
88.5,233.08
88.55,232.5658
88.6,231.8359
88.65,231.132
88.7,230.7415
88.75,231.395
88.8,232.1896
88.85,232.6698
88.9,232.4851
88.95,233.1512
89,234.1922
89.05,235.6596
89.1,236.9151
89.15,238.0676
89.2,239.2849
89.25,240.2677
89.3,241.0948
89.35,242.2846
89.4,243.6559
89.45,244.926
89.5,246.3018
89.55,248.2203
89.6,250.6511
89.65,252.9454
89.7,254.771
89.75,256.3647
89.8,258.5768
89.85,261.211
89.9,263.3773
89.95,265.3669
90,266.98
90.05,268.2602
90.1,270.4953
90.15,272.1044
90.2,274.4529
90.25,276.9417
90.3,278.3045
90.35,278.9352
90.4,279.1303
90.45,280.0329
90.5,282.004
90.55,284.5806
90.6,287.3582
90.65,289.74
90.7,291.5727
90.75,292.6375
90.8,293.3188
90.85,294.4416
90.9,295.8297
90.95,296.7676
91,297.4419
91.05,298.5155
91.1,299.9448
91.15,301.1381
91.2,301.3137
91.25,301.4473
91.3,301.6024
91.35,301.9713
91.4,301.949
91.45,301.8544
91.5,301.0744
91.55,299.806
91.6,298.5912
91.65,297.795
91.7,296.9488
91.75,295.3778
91.8,292.18
91.85,288.8356
91.9,286.5597
91.95,284.5268
92,283.0762
92.05,282.2637
92.1,280.9169
92.15,278.7032
92.2,275.7828
92.25,271.9791
92.3,267.8794
92.35,263.9636
92.4,259.9174
92.45,256.5225
92.5,253.7321
92.55,251.0211
92.6,248.7895
92.65,245.7563
92.7,242.5433
92.75,239.7964
92.8,235.9372
92.85,232.504
92.9,230.048
92.95,226.6202
93,223.3167
93.05,220.9823
93.1,218.6414
93.15,215.8405
93.2,212.8663
93.25,209.8232
93.3,206.313
93.35,202.7108
93.4,200.4593
93.45,199.1778
93.5,197.3651
93.55,195.1579
93.6,193.3105
93.65,191.7342
93.7,190.244
93.75,188.9489
93.8,187.9358
93.85,186.0544
93.9,182.9338
93.95,180.0306
94,178.1237
94.05,176.4293
94.1,175.0168
94.15,174.3608
94.2,173.346
94.25,171.6136
94.3,169.6144
94.35,167.852
94.4,165.8005
94.45,162.8703
94.5,159.463
94.55,156.8384
94.6,154.5619
94.65,152.5207
94.7,150.5648
94.75,148.7467
94.8,146.8508
94.85,144.2642
94.9,140.9253
94.95,137.7016
95,134.8114
95.05,131.916
95.1,129.6611
95.15,127.8286
95.2,126.2078
95.25,123.4425
95.3,119.7271
95.35,116.5918
95.4,113.7023
95.45,110.7711
95.5,108.8503
95.55,106.7778
95.6,105.0497
95.65,102.9658
95.7,101.5022
95.75,99.76893
95.8,97.84444
95.85,96.00391
95.9,93.646
95.95,90.84754
96,88.42746
96.05,86.51908
96.1,84.88628
96.15,83.30442
96.2,82.15496
96.25,81.33355
96.3,80.11616
96.35,78.80249
96.4,77.96098
96.45,77.14428
96.5,75.85166
96.55,74.39676
96.6,73.30111
96.65,73.10603
96.7,73.16444
96.75,73.05233
96.8,73.06085
96.85,73.22958
96.9,72.35651
96.95,71.797
97,71.32003
97.05,70.70011
97.1,69.65356
97.15,68.56091
97.2,67.88013
97.25,67.30251
97.3,67.2233
97.35,67.65067
97.4,68.51408
97.45,69.21429
97.5,69.25912
97.55,68.84307
97.6,68.46895
97.65,68.27901
97.7,68.60866
97.75,69.84483
97.8,71.11448
97.85,71.98489
97.9,72.23779
97.95,72.87533
98,74.0141
98.05,75.00624
98.1,75.8204
98.15,76.88538
98.2,78.1514
98.25,78.89292
98.3,79.85867
98.35,81.47286
98.4,82.46763
98.45,82.28883
98.5,81.7305
98.55,81.51203
98.6,81.87866
98.65,82.47828
98.7,83.13087
98.75,83.80795
98.8,84.00867
98.85,83.59462
98.9,83.14825
98.95,83.50674
99,85.08238
99.05,87.40125
99.1,89.58037
99.15,91.07603
99.2,91.76506
99.25,91.47283
99.3,90.82178
99.35,90.02421
99.4,90.595
99.45,91.67387
99.5,92.81516
99.55,93.92319
99.6,94.68144
99.65,94.6769
99.7,94.48412
99.75,94.79977
99.8,95.78085
99.85,96.98627
99.9,98.54802
99.95,100.2335
100,101.5199
100.05,102.4456
100.1,103.2585
100.15,104.2321
100.2,104.8859
100.25,105.5685
100.3,106.769
100.35,107.5114
100.4,107.1432
100.45,106.0358
100.5,104.8438
100.55,104.5534
100.6,105.4667
100.65,107.5313
100.7,109.7935
100.75,110.6416
100.8,110.5519
100.85,110.3124
100.9,110.3325
100.95,110.8049
101,112.078
101.05,114.397
101.1,116.6418
101.15,118.0869
101.2,118.1273
101.25,117.8687
101.3,117.5691
101.35,116.7165
101.4,116.2737
101.45,116.6129
101.5,117.5388
101.55,118.6308
101.6,119.4542
101.65,120.4097
101.7,121.4211
101.75,121.7192
101.8,121.6963
101.85,121.6357
101.9,121.4393
101.95,121.3951
102,122.4567
102.05,123.7767
102.1,124.7313
102.15,124.5306
102.2,124.3379
102.25,124.2986
102.3,125.3321
102.35,126.3203
102.4,127.3503
102.45,126.938
102.5,126.1796
102.55,126.0285
102.6,127.125
102.65,128.8838
102.7,130.4577
102.75,130.9346
102.8,130.7027
102.85,130.2507
102.9,130.0425
102.95,130.4391
103,130.9878
103.05,131.1284
103.1,130.5528
103.15,129.0576
103.2,127.5688
103.25,127.069
103.3,127.0221
103.35,127.2912
103.4,127.8447
103.45,127.7837
103.5,126.1944
103.55,123.9686
103.6,123.0225
103.65,123.8845
103.7,124.4467
103.75,124.6342
103.8,123.9181
103.85,122.645
103.9,122.4209
103.95,123.2713
104,123.3412
104.05,122.6653
104.1,121.624
104.15,119.6716
104.2,117.0086
104.25,114.6473
104.3,112.6964
104.35,110.3271
104.4,107.9733
104.45,107.2678
104.5,107.9997
104.55,108.5319
104.6,108.4405
104.65,107.2811
104.7,104.4332
104.75,100.5786
104.8,95.78071
104.85,92.10733
104.9,89.38351
104.95,88.16016
105,88.27488
105.05,88.15338
105.1,87.64917
105.15,85.72563
105.2,82.33751
105.25,78.64631
105.3,75.18317
105.35,73.30709
105.4,72.84035
105.45,71.98528
105.5,69.66298
105.55,66.79359
105.6,64.41673
105.65,62.69165
105.7,61.52802
105.75,60.2932
105.8,57.63593
105.85,53.21675
105.9,48.92367
105.95,46.74478
106,46.6806
106.05,47.30903
106.1,48.036
106.15,47.55489
106.2,45.35531
106.25,42.31764
106.3,39.88243
106.35,37.64835
106.4,35.45696
106.45,33.6201
106.5,32.20554
106.55,30.80437
106.6,28.94963
106.65,27.09343
106.7,25.34258
106.75,23.53854
106.8,22.16512
106.85,21.08437
106.9,19.77165
106.95,18.0129
107,15.8138
107.05,13.79683
107.1,12.69145
107.15,12.29164
107.2,12.10424
107.25,11.86719
107.3,11.54402
107.35,11.06137
107.4,10.07974
107.45,8.863093
107.5,7.843898
107.55,6.955465
107.6,6.236945
107.65,5.953061
107.7,5.721791
107.75,5.135364
107.8,3.953404
107.85,2.611712
107.9,1.639668
107.95,1.058869
108,0.6199694
108.05,0.125328
108.1,-0.3280829
108.15,-0.6212609
108.2,-0.7345812
108.25,-0.6267851
108.3,-0.3117512
108.35,-0.1380132
108.4,-0.4596591
108.45,-1.156604
108.5,-1.743315
108.55,-1.916839
108.6,-1.865303
108.65,-1.637435
108.7,-1.615232
108.75,-1.556566
108.8,-1.975329
108.85,-2.572541
108.9,-2.606456
108.95,-2.173549
109,-1.98999
109.05,-2.051748
109.1,-2.48413
109.15,-2.812208
109.2,-3.425951
109.25,-3.796542
109.3,-3.948166
109.35,-3.776327
109.4,-3.668688
109.45,-3.880519
109.5,-4.295826
109.55,-4.624878
109.6,-4.859984
109.65,-4.95592
109.7,-4.819051
109.75,-4.544
109.8,-4.401583
109.85,-4.504487
109.9,-4.568341
109.95,-4.597132
110,-4.613327
110.05,-4.716609
110.1,-4.60571
110.15,-4.353335
110.2,-4.207185
110.25,-4.398121
110.3,-4.668917
110.35,-5.364063
110.4,-6.014961
110.45,-6.498914
110.5,-6.651495
110.55,-6.730231
110.6,-6.737776
110.65,-6.777017
110.7,-6.579111
110.75,-6.363183
110.8,-6.221555
110.85,-6.235697
110.9,-6.291286
110.95,-6.433775
111,-6.617755
111.05,-6.817649
111.1,-6.977636
111.15,-6.946343
111.2,-6.829977
111.25,-6.696881
111.3,-6.720231
111.35,-6.859947
111.4,-7.053177
111.45,-7.037918
111.5,-7.128393
111.55,-7.061558
111.6,-7.07164
111.65,-7.027948
111.7,-7.136447
111.75,-7.160481
111.8,-7.307618
111.85,-7.131756
111.9,-6.526981
111.95,-5.609826
112,-4.770372
112.05,-3.875605
112.1,-2.942208
112.15,-1.881039
112.2,-0.5373544
112.25,1.896106
112.3,6.960307
112.35,14.22296
112.4,22.26355
112.45,30.74653
112.5,39.71003
112.55,49.58183
112.6,61.41447
112.65,76.36726
112.7,94.16082
112.75,112.46
112.8,127.6189
112.85,137.2184
112.9,141.7817
112.95,144.655
113,145.612
113.05,143.9649
113.1,138.7421
113.15,132.1974
113.2,125.2908
113.25,117.3346
113.3,107.1714
113.35,95.28266
113.4,81.83722
113.45,68.45834
113.5,55.92941
113.55,45.01067
113.6,36.4102
113.65,29.75841
113.7,23.94247
113.75,18.80047
113.8,14.55189
113.85,10.68262
113.9,7.012469
113.95,4.050128
114,2.704312
114.05,2.849657
114.1,2.819746
114.15,1.878868
114.2,0.2049437
114.25,-1.540993
114.3,-2.6201
114.35,-2.707634
114.4,-2.314591
114.45,-1.891039
114.5,-1.474778
114.55,-1.443109
114.6,-2.189301
114.65,-3.415223
114.7,-4.680792
114.75,-5.229513
114.8,-4.817648
114.85,-4.164678
114.9,-3.621205
114.95,-3.530643
115,-4.217888
115.05,-5.144198
115.1,-5.561627
115.15,-5.23515
115.2,-4.557268
115.25,-4.289216
115.3,-4.384407
115.35,-4.548819
115.4,-4.982387
115.45,-5.482131
115.5,-5.596984
115.55,-5.779038
115.6,-5.631599
115.65,-5.335526
115.7,-5.083167
115.75,-5.032113
115.8,-5.333348
115.85,-6.00247
115.9,-6.690287
115.95,-7.280897
116,-7.393475
116.05,-7.227553
116.1,-6.778281
116.15,-6.535693
116.2,-6.379886
116.25,-6.209327
116.3,-6.179104
116.35,-6.449277
116.4,-6.835958
116.45,-7.113592
116.5,-7.275636
116.55,-7.337447
116.6,-7.19108
116.65,-6.763866
116.7,-6.564555
116.75,-6.610387
116.8,-6.926659
116.85,-7.388417
116.9,-7.870904
116.95,-8.071286
117,-8.175576
117.05,-8.195457
117.1,-8.280019
117.15,-8.158894
117.2,-8.282561
117.25,-8.198993
117.3,-8.013504
117.35,-7.997599
117.4,-8.147741
117.45,-8.284228
117.5,-8.453186
117.55,-8.441327
117.6,-8.399766
117.65,-8.371703
117.7,-8.411077
117.75,-8.530235
117.8,-8.579934
117.85,-8.539978
117.9,-8.44892
117.95,-8.297959
118,-8.191205
118.05,-8.237095
118.1,-8.251487
118.15,-8.240628
118.2,-8.206407
118.25,-8.336837
118.3,-8.415468
118.35,-8.557301
118.4,-8.7243
118.45,-8.737526
118.5,-8.691896
118.55,-8.539702
118.6,-8.340914
118.65,-8.238107
118.7,-8.129896
118.75,-8.244696
118.8,-8.444209
118.85,-8.660474
118.9,-8.905459
118.95,-9.013402
119,-8.990952
119.05,-8.935869
119.1,-8.86554
119.15,-8.852519
119.2,-8.892715
119.25,-8.890933
119.3,-8.874569
119.35,-8.849953
119.4,-8.850798
119.45,-8.84063
119.5,-8.852427
119.55,-8.833511
119.6,-8.831769
119.65,-8.783144
119.7,-8.821071
119.75,-8.875341
119.8,-8.997959
119.85,-8.992991
119.9,-8.966094
119.95,-8.879889
120,-8.920236
120.05,-8.941605
120.1,-8.897799
120.15,-8.804571
120.2,-8.780647
120.25,-8.812417
120.3,-8.940307
120.35,-9.098798
120.4,-9.172502
120.45,-9.004984
120.5,-8.657644
120.55,-8.377777
120.6,-8.257449
120.65,-8.318507
120.7,-8.447573
120.75,-8.564706
120.8,-8.580128
120.85,-8.651562
120.9,-8.640474
120.95,-8.757867
121,-8.831708
121.05,-9.021375
121.1,-9.137409
121.15,-9.152596
121.2,-9.146502
121.25,-9.009651
121.3,-8.703744
121.35,-8.600621
121.4,-8.559147
121.45,-8.698553
121.5,-8.887171
121.55,-9.129126
121.6,-9.297767
121.65,-9.270686
121.7,-9.249128
121.75,-9.281052
121.8,-9.233488
121.85,-9.15207
121.9,-9.084722
121.95,-8.926744
122,-8.642219
122.05,-8.392012
122.1,-8.356914
122.15,-8.385719
122.2,-8.424897
122.25,-8.58877
122.3,-8.783208
122.35,-8.811584
122.4,-8.587074
122.45,-8.507136
122.5,-8.483035
122.55,-8.500276
122.6,-8.702401
122.65,-8.871346
122.7,-9.028843
122.75,-9.1175
122.8,-9.143202
122.85,-9.17082
122.9,-9.155108
122.95,-9.176946
123,-9.189612
123.05,-9.110393
123.1,-9.02517
123.15,-9.018199
123.2,-8.99907
123.25,-8.944401
123.3,-8.944201
123.35,-8.944955
123.4,-8.974519
123.45,-9.111378
123.5,-9.250254
123.55,-9.433619
123.6,-9.610761
123.65,-9.509937
123.7,-9.411742
123.75,-9.214998
123.8,-9.178043
123.85,-9.279672
123.9,-9.13523
123.95,-9.214707
124,-9.300806
124.05,-9.343656
124.1,-9.379186
124.15,-9.364321
124.2,-9.283494
124.25,-9.168631
124.3,-9.065861
124.35,-9.132682
124.4,-9.286578
124.45,-9.5065
124.5,-9.675691
124.55,-9.620012
124.6,-9.491308
124.65,-9.409563
124.7,-9.308031
124.75,-9.213532
124.8,-9.271335
124.85,-9.395418
124.9,-9.489115
124.95,-9.405693
125,-9.382941
125.05,-9.549902
125.1,-9.692394
125.15,-9.716742
125.2,-9.732194
125.25,-9.69549
125.3,-9.62898
125.35,-9.428762
125.4,-9.352275
125.45,-9.318638
125.5,-9.384151
125.55,-9.424295
125.6,-9.454337
125.65,-9.494469
125.7,-9.501616
125.75,-9.463679
125.8,-9.418379
125.85,-9.282055
125.9,-9.187003
125.95,-9.243187
126,-9.285906
126.05,-9.439796
126.1,-9.617332
126.15,-9.848476
126.2,-9.948679
126.25,-9.802681
126.3,-9.590836
126.35,-9.530998
126.4,-9.375338
126.45,-9.484453
126.5,-9.494794
126.55,-9.737379
126.6,-9.679704
126.65,-9.524224
126.7,-9.367475
126.75,-9.251563
126.8,-9.127354
126.85,-9.11102
126.9,-9.175903
126.95,-9.302311
127,-9.316301
127.05,-9.347964
127.1,-9.457896
127.15,-9.506895
127.2,-9.48551
127.25,-9.449056
127.3,-9.419993
127.35,-9.413758
127.4,-9.392803
127.45,-9.397232
127.5,-9.434916
127.55,-9.371288
127.6,-9.314417
127.65,-9.324356
127.7,-9.356043
127.75,-9.499969
127.8,-9.631204
127.85,-9.69924
127.9,-9.754103
127.95,-9.787635
128,-9.77798
128.05,-9.669419
128.1,-9.640944
128.15,-9.779016
128.2,-9.957581
128.25,-10.00443
128.3,-9.950802
128.35,-9.87551
128.4,-9.778816
128.45,-9.597826
128.5,-9.515591
128.55,-9.623791
128.6,-9.778353
128.65,-9.8671
128.7,-9.88554
128.75,-9.938247
128.8,-9.899556
128.85,-9.856367
128.9,-9.781322
128.95,-9.825678
129,-9.868265
129.05,-9.992684
129.1,-9.990758
129.15,-10.02085
129.2,-9.993647
129.25,-10.06534
129.3,-9.94805
129.35,-9.852169
129.4,-9.907035
129.45,-9.963742
129.5,-9.989448
129.55,-10.00229
129.6,-9.938381
129.65,-9.933656
129.7,-9.880741
129.75,-9.910351
129.8,-10.07176
129.85,-10.14458
129.9,-10.06952
129.95,-9.923095
130,-9.755921
130.05,-9.666636
130.1,-9.67291
130.15,-9.763453
130.2,-10.01171
130.25,-10.14489
130.3,-10.22868
130.35,-10.23851
130.4,-10.24821
130.45,-10.21151
130.5,-10.16798
130.55,-10.16775
130.6,-10.23033
130.65,-10.17423
130.7,-10.20578
130.75,-10.10565
130.8,-10.19263
130.85,-10.29238
130.9,-10.36757
130.95,-10.35677
131,-10.33827
131.05,-10.32268
131.1,-10.36341
131.15,-10.35578
131.2,-10.33252
131.25,-10.33033
131.3,-10.28236
131.35,-10.21155
131.4,-10.14409
131.45,-10.1827
131.5,-10.17473
131.55,-10.04353
131.6,-9.844814
131.65,-9.814129
131.7,-9.783275
131.75,-9.92406
131.8,-10.04618
131.85,-10.24769
131.9,-10.43627
131.95,-10.57832
132,-10.55477
132.05,-10.56812
132.1,-10.51244
132.15,-10.52143
132.2,-10.39002
132.25,-10.2822
132.3,-10.34809
132.35,-10.46844
132.4,-10.5301
132.45,-10.57808
132.5,-10.54973
132.55,-10.40597
132.6,-10.18122
132.65,-10.01888
132.7,-10.06133
132.75,-10.17833
132.8,-10.2755
132.85,-10.31414
132.9,-10.31484
132.95,-10.26641
133,-10.25734
133.05,-10.28875
133.1,-10.53855
133.15,-10.66348
133.2,-10.68823
133.25,-10.51344
133.3,-10.46439
133.35,-10.34387
133.4,-10.34963
133.45,-10.30953
133.5,-10.4566
133.55,-10.47778
133.6,-10.5555
133.65,-10.58494
133.7,-10.59353
133.75,-10.56073
133.8,-10.57911
133.85,-10.54888
133.9,-10.54194
133.95,-10.56213
134,-10.49798
134.05,-10.43532
134.1,-10.36643
134.15,-10.46064
134.2,-10.57731
134.25,-10.57728
134.3,-10.4058
134.35,-10.29081
134.4,-10.16511
134.45,-10.29612
134.5,-10.38676
134.55,-10.32878
134.6,-10.28776
134.65,-10.32606
134.7,-10.35261
134.75,-10.50466
134.8,-10.61038
134.85,-10.70238
134.9,-10.60485
134.95,-10.42808
135,-10.36229
135.05,-10.38652
135.1,-10.41314
135.15,-10.52891
135.2,-10.69935
135.25,-10.9031
135.3,-11.04155
135.35,-10.98009
135.4,-10.85876
135.45,-10.75957
135.5,-10.65073
135.55,-10.59466
135.6,-10.68284
135.65,-10.76227
135.7,-10.82547
135.75,-10.80153
135.8,-10.84177
135.85,-10.86855
135.9,-10.84761
135.95,-10.84517
136,-10.86308
136.05,-10.9304
136.1,-11.04026
136.15,-10.99957
136.2,-10.8916
136.25,-10.7713
136.3,-10.76442
136.35,-10.79232
136.4,-10.81369
136.45,-10.86175
136.5,-10.97219
136.55,-11.03019
136.6,-10.99154
136.65,-10.91266
136.7,-10.85541
136.75,-10.79976
136.8,-10.6533
136.85,-10.56184
136.9,-10.55684
136.95,-10.71539
137,-10.82454
137.05,-10.99505
137.1,-11.16937
137.15,-11.23578
137.2,-11.06034
137.25,-10.94771
137.3,-10.92002
137.35,-11.09327
137.4,-11.19092
137.45,-11.28128
137.5,-11.22085
137.55,-11.09263
137.6,-10.89945
137.65,-10.79607
137.7,-10.78133
137.75,-10.84424
137.8,-10.88589
137.85,-10.93085
137.9,-10.9664
137.95,-11.04029
138,-11.09286
 
Alignment,On
